File: xrd.uxd
;content of D:\DATA\ab2020\Catalin\MnZnFeO4\100\Phi_MnZnFe2O4_620.raw - (Diffrac Plus V4 file)
_FILEVERSION = 3
_SAMPLE = Commander Sample ID
_+SAMPLE
_USER = Lab Manager
_GONIOMETER_CODE = 20
_STAGE_CODE = 4
; Goniometer : D8 theta/2theta, stage : Open eulerian craddle
_SAMPLE_CHANGER_CODE = 0
_ATTACHMENTS_CODE = 0
_GONIOMETER_RADIUS = 390
_FIXED_DETSLIT = 0
_MONOCHROMATOR = 0
; Incident beam monochromator : None
_BETA_FILTER = N
_ANALYZER_CODE = 0
; Received beam analyzer : None
_DATEMEASURED = 20-Jan-2020 15:38:08
_RUNTIME = 3.848059
_WL_UNIT = A
_WL1 = 1.5406
_WL2 = 1.54439
_WL3 = 1.39222
_WLRATIO = 0.5
_ANODE = Cu
_V4_INF_USER = Lab Manager
_V4_INF_SAMPLEID = Commander Sample ID
_V4_INF_CREATOR = V5Converter
_V4_INF_CREATOR_VERSION = 3.3.50.0
_V4_INF_SUBSTRATE = Si (no database)
_V4_INF_LAYER = Si (no database)

; Data for range 1
_DRIVE = COUPLED
_STEPTIME = 0.5
_STEPSIZE = 1
_STEPMODE = S
_START = -180
_THETA = 16.8276
_2THETA = 69.941
_KHI = 0.03
_PHI = -180
_X = -0.093
_Y = -0.153
_Z = 0.5965
_DETECTORSLIT = out
_AUX1 = 0.099
_AUX2 = 0.388
_TIMESTARTED = 0
_KV = 40
_MA = 40
_RANGE_WL = 1.5406
_3DPLANE = 0
_V4_PSD2THETA = 9999
_V4_PSDCHANNEL1 = 0
_V4_PSDAPERTURE = 14.325
_V4_PSDTYPE = 5
_V4_PSDFIXED = 0
_V4_COUNTERS_MASK = 1
_V4_DRIVES_MASK = 0
_V4_ENCODERS_MASK = 0
_2THETACOUNTS = 1
; 2THETA	Cnt2_D1
-180	4129
-179	3514
-178	2764
-177	2097
-176	1387
-175	782
-174	358
-173	200
-172	155
-171	147
-170	146
-169	152
-168	170
-167	138
-166	126
-165	150
-164	145
-163	147
-162	160
-161	146
-160	145
-159	127
-158	137
-157	105
-156	135
-155	124
-154	136
-153	135
-152	153
-151	150
-150	113
-149	120
-148	141
-147	135
-146	136
-145	104
-144	126
-143	123
-142	110
-141	112
-140	110
-139	122
-138	112
-137	108
-136	111
-135	118
-134	105
-133	116
-132	116
-131	117
-130	109
-129	120
-128	138
-127	114
-126	130
-125	111
-124	104
-123	121
-122	117
-121	105
-120	94
-119	115
-118	114
-117	95
-116	117
-115	117
-114	107
-113	110
-112	96
-111	102
-110	113
-109	119
-108	117
-107	116
-106	114
-105	95
-104	112
-103	135
-102	106
-101	113
-100	122
-99	91
-98	119
-97	217
-96	484
-95	951
-94	1546
-93	1929
-92	2330
-91	2470
-90	2452
-89	2124
-88	1708
-87	1230
-86	686
-85	312
-84	164
-83	116
-82	129
-81	114
-80	108
-79	101
-78	130
-77	106
-76	129
-75	136
-74	112
-73	125
-72	125
-71	116
-70	90
-69	113
-68	108
-67	97
-66	114
-65	131
-64	89
-63	126
-62	100
-61	119
-60	118
-59	115
-58	100
-57	125
-56	128
-55	93
-54	108
-53	127
-52	125
-51	119
-50	114
-49	100
-48	106
-47	133
-46	109
-45	138
-44	133
-43	149
-42	123
-41	128
-40	125
-39	128
-38	140
-37	115
-36	163
-35	142
-34	138
-33	134
-32	128
-31	142
-30	161
-29	158
-28	155
-27	153
-26	157
-25	147
-24	159
-23	154
-22	159
-21	155
-20	134
-19	148
-18	141
-17	144
-16	171
-15	145
-14	169
-13	154
-12	165
-11	136
-10	151
-9.000000	181
-8.000000	275
-7.000000	547
-6.000000	1058
-5.000000	1743
-4.000000	2550
-3.000000	3227
-2.000000	3844
-1.000000	4369
0.000000	4484
1.000000	3961
2.000000	3347
3.000000	2569
4.000000	1713
5.000000	993
6.000000	510
7.000000	253
8.000000	146
9.000000	143
10	141
11	139
12	164
13	148
14	137
15	146
16	151
17	125
18	132
19	162
20	120
21	139
22	157
23	127
24	115
25	148
26	140
27	158
28	148
29	156
30	136
31	140
32	129
33	146
34	125
35	127
36	171
37	126
38	159
39	123
40	133
41	125
42	129
43	120
44	126
45	127
46	140
47	115
48	114
49	117
50	123
51	114
52	108
53	130
54	128
55	115
56	109
57	113
58	141
59	129
60	118
61	109
62	128
63	128
64	129
65	111
66	103
67	108
68	100
69	120
70	102
71	114
72	116
73	102
74	103
75	120
76	122
77	94
78	115
79	138
80	88
81	111
82	108
83	184
84	374
85	824
86	1450
87	2139
88	2566
89	2767
90	2757
91	2414
92	1882
93	1220
94	681
95	324
96	143
97	109
98	110
99	96
100	109
101	103
102	103
103	116
104	97
105	87
106	124
107	92
108	108
109	107
110	90
111	92
112	111
113	103
114	114
115	116
116	116
117	105
118	101
119	110
120	120
121	99
122	127
123	122
124	115
125	120
126	99
127	118
128	101
129	109
130	124
131	130
132	132
133	117
134	110
135	119
136	135
137	139
138	149
139	112
140	122
141	150
142	151
143	135
144	140
145	128
146	136
147	157
148	155
149	132
150	143
151	170
152	156
153	140
154	155
155	150
156	126
157	143
158	166
159	134
160	139
161	142
162	140
163	144
164	157
165	142
166	135
167	142
168	141
169	124
170	158
171	198
172	327
173	603
174	1067
175	1805
176	2619
177	3408
178	4200
179	4123
180	3928